acc_x [m/s^2], acc_y [m/s^2], angular_z [rad/s^2], stamp, 
-0.020041406154632499,0.031907200813293402,6.6006002306383252e-05,1759500751637173982
-0.025393366813659599,-0.0111780762672424,-6.6113363913604785e-05,1759500751667175610
-0.0071873068809509,0.014057517051696699,-7.4365089330256858e-10,1759500751697233612
0.032501101493835401,0.0265079736709594,-1.2634268105983822e-09,1759500751729442079
-0.016118586063384999,0.011762380599975499,1.7142510495423337e-10,1759500751757356937
-0.021365582942962601,-0.0153003931045532,-7.7923178548115413e-11,1759500751787572407
0.0095749497413634994,-0.00078415870666500003,-9.5096486885524789e-11,1759500751817387975
-0.022345602512359598,0.010037899017333899,-3.1065838137705676e-09,1759500751847467720
0.0031861662864684998,-0.0151878595352172,-1.0817575160598624e-09,1759500751877479766
0.0141507387161254,-0.0079674124717712003,-4.6980725958084985e-10,1759500751906527068
-0.0145540237426757,0.0029247403144836001,-8.3157665582357827e-10,1759500751937810341
0.0016744136810301999,0.0048142075538635002,2.8818544386967738e-10,1759500751969540874
0.014209508895873999,0.0082405209541320003,2.3190196813169239e-10,1759500752000571586
-0.012845158576965301,-0.0098756551742553,3.1124823496243722e-09,1759500752028168580
-0.0112116932868957,-0.0152622461318969,2.5686018758286573e-09,1759500752057856751
-0.0040351748466490997,-0.0133343935012817,-2.8742979375185452e-09,1759500752087887440
0.0013030767440795001,0.019228816032409599,3.043672010521012e-10,1759500752117997045
0.032981395721435498,-0.0060766339302061999,-0.0094012795940556435,1759500752148001995
0.089273214340209905,0.0086318850517271995,0.047194561319427612,1759500752178056750
0.24553143978118891,0.50170040130615234,2.2362716713431841,1759500752209449089
0.12889623641967771,0.57975900173187256,8.7606354770007844,1759500752241579582
-0.44378608465194702,0.33396637439727778,13.39907798408192,1759500752268223653
0.12000268697738641,-0.0119695663452148,4.1696428340782337,1759500752298200398
-0.37723344564437861,0.1097122430801391,6.8082491076904681,1759500752328252395
0.036548793315887403,0.2513081431388855,4.9852876579819982,1759500752358281908
-0.46509349346160889,0.57365524768829346,4.9831047829756434,1759500752388334918
0.038815021514892502,0.25755017995834351,6.0170003865077843,1759500752418413172
0.1477019786834716,-0.1516461968421936,4.7126662847317951,1759500752449778415
-0.44274747371673578,0.2163208723068237,4.1806029576253199,1759500752481376035
-0.027901828289031899,-0.2335847020149231,20.641312573049994,1759500752507625575
-0.42288690805435181,-0.0061630606651305996,-12.543787978889219,1759500752538627638
-0.31194239854812622,-0.28923678398132319,1.9019838753814511,1759500752567687562
0.17137885093688959,-0.0051137208938598,-5.4627256155237838,1759500752598746070
-0.28519976139068598,0.14850229024887079,1.5816125504775156,1759500752628811640
0.043886542320251402,-0.070087671279907199,0.59708727810507956,1759500752659023565
-0.61994451284408569,0.29652762413024902,-1.2793760738281228,1759500752689610954
0.58913499116897583,-0.058187723159789997,-1.7974212038536346,1759500752721340203
-0.42366659641265869,-0.0078801512718200007,8.9206963470392147,1759500752749024119
-0.16329491138458249,-0.0041157603263854,-5.0756647034755833,1759500752779069761
-0.10165023803710931,0.067470192909240695,0.10938409605312505,1759500752809184291
-0.49588364362716669,-0.023257076740264799,-0.67070570803700924,1759500752839348700
0.0216150879859924,0.1307903528213501,1.0511769285388803,1759500752869348495
-0.6794472336769104,0.22191411256790161,-0.048881957222365741,1759500752899213944
0.45174646377563471,-0.088064551353454507,-0.12118023864717369,1759500752929466030
-0.24348908662796021,0.013292372226714999,-4.046486263289383,1759500752961787144
-0.1664780378341674,0.18872940540313721,5.0226915604026843,1759500752991502495
0.11216312646865841,0.0720493793487548,5.1853288750185564,1759500753019427992
-0.4892808198928833,-0.0711652636528015,-6.1321433826849621,1759500753049511366
-0.3065108060836792,-0.21952307224273679,0.59329884323209225,1759500753079530865
-0.75936126708984375,-0.046720743179321199,1.7499982741575022,1759500753108619846
0.21666508913040161,-0.094108164310455295,-3.8914817242590689,1759500753139857235
-0.7340349555015564,-0.1010811328887939,2.9122038294159247,1759500753169804816
0.24545997381210319,-0.13788986206054679,-4.2803225198407038,1759500753201623154
-0.21741247177124021,-0.1208943724632263,1.4621134169383252,1759500753232574566
-0.65464621782302856,-0.1042740941047668,8.8772353177958454,1759500753259851959
0.0093946456909178994,-0.0032340288162230999,-5.6438185693065037,1759500753289902387
-0.41198968887329102,-0.033833622932433999,-0.83438773994662441,1759500753319916648
-0.3207221627235412,0.1008723974227905,0.71187357531375373,1759500753350033128
-0.21292698383331299,0.085745334625244099,0.79277107840192418,1759500753380041920
0.078950941562652505,0.099170386791229206,-0.82287072894069846,1759500753410157173
0.38970452547073359,-0.022259235382079998,-2.0335761971254001,1759500753441730180
-0.42600935697555542,0.27411913871765131,-1.782232825054149,1759500753473937421
0.27366888523101801,0.0298321843147277,13.839818990018125,1759500753500597502
-0.67179250717163086,-0.057159364223480197,-8.0200973607409249,1759500753530347165
-0.31383872032165527,-0.066534757614135701,-0.72114164794150193,1759500753560421729
0.1012489199638366,0.1471179127693176,0.47591425890815908,1759500753590450970
-0.38086354732513428,0.22471040487289429,-0.6676599862195195,1759500753620444844
0.31418031454086298,0.0107890367507934,1.3663592011053347,1759500753650548918
-0.96506190299987804,-0.3496029376983642,-1.4617564323392929,1759500753681509422
0.080205857753753607,-0.16872185468673701,-1.4946446694974487,1759500753713302785
-0.18258070945739741,-0.019485652446746798,9.2571103805060737,1759500753740787655
-0.71509510278701782,-0.091341495513916002,-7.0606685791545685,1759500753770960585
-0.0177859663963317,-0.15104091167449951,1.9729194745103802,1759500753800854709
-0.4921382069587707,0.1982732415199279,-0.71118563169329674,1759500753830922855
0.32059866189956659,0.086359798908233601,0.61511025619594228,1759500753860904026
-0.55272787809371948,-0.13793361186981201,-1.1898942852127361,1759500753891014239
-0.13797199726104731,0.0540142655372619,-2.577663514279505,1759500753922414653
0.093409240245818995,-0.045355439186096101,1.663083008543002,1759500753953340628
-0.33313548564910889,0.3331917524337768,6.0008293020789418,1759500753981166301
-0.0057756900787353004,0.057582378387451102,-5.0256649315368236,1759500754011177309
-0.5133015513420105,-0.1272207498550415,-1.5777522059721181,1759500754041910938
-0.0151436924934387,-0.0141529440879821,2.4579334797618295,1759500754071905284
-0.53351253271102905,0.1058828830718994,0.10681710498740717,1759500754101858343
0.1159422993659973,0.026934981346130302,-1.0953517860840229,1759500754132238787
0.028350174427032401,-0.30031031370162958,0.54758781003187262,1759500754162463201
-0.94823747873306286,-0.0025029778480529,-1.71868259901961,1759500754193380216
-0.083874225616454995,0.1485668420791626,2.1910253557562593,1759500754223548532
-0.43931269645690918,-0.051397621631622301,2.9660298932916378,1759500754252249095
-0.14270985126495361,-0.13590782880783081,-2.5222578326838265,1759500754282064476
-0.15591377019882199,-0.2286351323127746,-0.46843452305202193,1759500754312147168
-0.42113745212554932,0.079118192195892306,0.48041946556790621,1759500754342042912
0.32169115543365479,0.11075377464294429,0.07812243934225975,1759500754372300940
-0.4968077540397644,0.1491134166717529,-0.59550496576749157,1759500754402313954
0.33595693111419678,-0.2255913019180297,-2.4874913831831735,1759500754433802730
-1.0037744045257568,-0.15091919898986811,2.5248254104745267,1759500754463694040
0.13829433917999259,0.2653810977935791,3.9825008010089773,1759500754492163024
-0.213234543800354,0.064036428928375203,-3.3518473540500762,1759500754522187593
-0.21507656574249259,-0.032080113887786803,-0.53604920864794126,1759500754552203074
0.062732577323913505,-0.43008852005004877,1.3923969688534863,1759500754582262663
-0.55813664197921753,0.20685416460037229,-1.421322869290822,1759500754612666748
0.1638038754463195,-0.036541581153869601,1.8132085157651392,1759500754642321951
-0.37243086099624628,-0.28064370155334473,-3.5493022537979093,1759500754673475322
-0.3398774266242981,0.19156777858734131,-2.0226681154250263,1759500754705640092
-0.2620384693145752,-0.123096764087677,14.328924485925031,1759500754732467221
-0.14341467618942261,0.48772019147872919,-8.7959670596016988,1759500754762460312
0.1067067980766296,-0.086242258548736503,0.044599410867232708,1759500754792504453
-0.40864115953445429,-0.1838774681091308,0.43651335192744328,1759500754822542101
-0.21583801507949829,0.044234037399291902,-0.24828181695943607,1759500754852599425
-0.0024339556694029998,0.31254959106445312,0.26174847087860054,1759500754882624607
-0.20120900869369501,0.057472467422485303,-2.7379986766459266,1759500754913450828
0.0011390447616577001,-0.27508062124252319,-2.4127879056658879,1759500754945976766
-0.62439340353012085,0.097902655601501395,13.648666860841848,1759500754972819603
0.056630969047546303,0.097263514995574896,-6.4990768763436355,1759500755002864015
-0.55475920438766479,-0.041421115398406899,0.17024106435517847,1759500755032888250
-0.1286700963973999,-0.1851236820220947,-0.36896629253546775,1759500755062942854
-0.10146176815032951,-0.22426605224609369,0.41063680664701202,1759500755093004254
-0.65086245536804199,0.2247712016105651,-0.67119326687413106,1759500755123106576
-0.033689498901367097,0.027750968933105399,1.6904844951686375,1759500755152689524
-0.35601776838302612,-0.30767899751663208,-6.1828351458597188,1759500755185399529
-0.10252839326858521,-0.15850085020065299,11.182713834373752,1759500755213273100
-0.0070918202400206999,0.1243724226951599,-4.5950394271573876,1759500755243257741
-0.1355563402175903,0.26349890232086182,-0.025769962961509942,1759500755273266302
0.4640365839004516,-0.118681252002716,-0.25584168852146411,1759500755303332735
-0.6709102988243103,-0.0085811018943785997,-0.5131162024554643,1759500755333370487
0.1213679313659668,0.0240600109100341,0.74773735494026927,1759500755363446725
-0.3633886575698852,0.2057886719703674,-1.3405965861187346,1759500755393894619
0.086988568305969197,0.078598678112030002,-0.84267997480502133,1759500755424686196
-0.048662900924682603,-0.17408168315887451,-1.6782406253643987,1759500755456223454
-0.29253667593002319,0.22442615032196039,9.9430747147951877,1759500755483648016
0.14810454845428461,0.11402410268783569,-2.5644660051747734,1759500755512697864
-0.94403719902038563,-0.042937636375427198,-4.3075478192559391,1759500755543814994
0.1090969443321228,-0.30627351999282831,1.8127697739714532,1759500755573815725
-0.55118882656097412,-0.21319127082824699,-0.94227005665312835,1759500755603953095
-0.4080929160118103,-0.13729381561279291,-0.016139995549663399,1759500755633965764
-0.035373985767364502,0.083282351493835394,-2.6682800567277676,1759500755665455144
-0.28428679704666138,-0.087218225002288804,-1.8948261315119608,1759500755697459766
-0.060084283351898103,-0.12539017200469971,13.971777668257181,1759500755724147589
-0.61999863386154175,-0.076089620590209905,-7.8498815300547742,1759500755754126192
-0.28940004110336298,0.2072950005531311,0.55586012639762195,1759500755784177171
0.24677109718322751,-0.22882634401321411,0.91038957559401423,1759500755814195784
-0.39705944061279291,0.051614761352539,-1.0999120117123016,1759500755844388250
0.053735077381133999,-0.1321715712547302,0.18636703487694184,1759500755874619373
-0.67910081148147583,0.29138952493667603,-2.9492708688397529,1759500755905873548
0.2573624849319458,0.026709556579589799,-0.67874553819620753,1759500755938025009
-0.91001987457275402,-0.2907368540763855,14.21388281489299,1759500755964573026
0.081531822681427002,-0.23829156160354609,-7.6281108666180515,1759500755994560147
-0.034176707267761203,0.0598214268684387,0.16005083784640409,1759500756024604061
-0.74074256420135498,0.11696642637252801,-0.5502542873200601,1759500756054633081
0.17185550928115839,-0.21435427665710449,2.1424357293329295,1759500756083702738
-0.4814612865447998,-0.17765259742736811,-4.815449814907879,1759500756114738419
0.090919852256774902,0.19572585821151731,2.6343826217183728,1759500756144718284
-0.15854227542877189,0.15397578477859489,-5.3747121867559775,1759500756177602160
-0.059894859790802002,0.13434857130050659,12.308204475286859,1759500756204967438
0.21038186550140381,-0.20826637744903559,-4.8613109706027409,1759500756234914241
-0.40534555912017822,0.16248315572738639,-0.8770544405301367,1759500756265001380
0.1348538994789123,0.016503751277923501,0.4097187570257475,1759500756295053913
-0.45797204971313471,0.032011747360229402,-0.19471310570788497,1759500756325113560
0.17645078897476191,-0.058079838752746499,-0.61328066116113078,1759500756355261074
-0.48627281188964838,0.048432052135467502,1.5289911451301181,1759500756384719878
-0.11732059717178341,0.1106172204017639,-6.4284506790868772,1759500756417999723
0.24275344610214231,-0.079393029212951605,13.953866693826786,1759500756445437610
-0.56536310911178589,-0.1120467782020568,-7.0081851075808048,1759500756475361474
-0.19037902355194089,-0.21182811260223389,0.31611632929654315,1759500756505419339
-0.64644014835357666,0.021822810173034599,-0.077656182242295077,1759500756535478947
7.4326992034912109e-05,-0.060325443744659403,0.011209072126250465,1759500756565514326
-0.15451645851135251,-0.1002257466316223,0.12864183579676947,1759500756595559147
-0.310426115989685,-0.056607544422149603,0.95366953963036338,1759500756624730426
0.12023288011550901,0.079046130180358803,-5.9380145907021671,1759500756657540002
-0.71485316753387451,-0.019866168498992899,6.2062931930554317,1759500756687035415
0.1251236200332641,0.065652132034301702,1.732652621653991,1759500756725747678
-0.25663578510284418,-0.27813190221786499,-1.9214462752653101,1759500756755839815
-0.17330420017242429,-0.1999337673187255,-0.090993105486119816,1759500756785912491
-0.1241098642349243,0.035567581653594901,-3.3693231680354803,1759500756817595499
-0.84369641542434692,-0.030634880065917899,0.90273007383892945,1759500756848560864
-0.015217065811157201,0.088830351829528795,5.1706387419280144,1759500756886101264
-0.35656237602233881,-0.093244552612304604,-5.2492916548104924,1759500756916271328
0.10206204652786249,-0.18986994028091431,1.3949639358520427,1759500756946181172
-0.73869782686233521,0.34520137310028071,-3.5070532803259002,1759500756977523151
0.35463142395019531,0.12591177225112909,-0.47848301917595021,1759500757009245346
-0.2959835529327392,-0.20453298091888419,6.2890325486137026,1759500757046306789
0.0326258540153503,-0.019619047641754098,-4.8381743582299626,1759500757076377436
-0.45701956748962402,-0.29002976417541498,0.27058669219749332,1759500757106457830
-0.1508456468582153,0.24246853590011591,-2.2378583136054306,1759500757137524631
0.068829178810119601,-0.072016954421997001,-2.2845835236256589,1759500757170116456
-0.66542536020278931,-0.0512987375259399,15.594764609659233,1759500757196568233
-0.21242094039916989,0.1282204389572143,-8.1016227020285267,1759500757226647549
-0.088486850261688205,0.18629622459411621,-0.47369895541022627,1759500757256668349
0.1183576583862304,0.0318463444709777,-0.93909963143518915,1759500757286764513
0.044278085231780999,-0.284404456615448,-0.22712204782490494,1759500757316781323
-0.458016037940979,0.14864516258239741,-0.39871738862112449,1759500757346958990
0.0077002048492430999,0.20315420627593991,-0.16232457465548686,1759500757377925638
-0.53767067193984985,0.022000432014465301,-1.5301816524117893,1759500757409738118
0.0310301780700683,-0.092044949531555106,11.198135047101831,1759500757437109544
-0.45988202095031738,-0.081992685794830295,-6.814458683055113,1759500757467044030
-0.12759023904800409,-0.096645534038543701,-0.31577021666961774,1759500757497086149
-0.0033647418022154998,0.30962890386581421,0.29451624799112663,1759500757527129895
-0.30921351909637451,0.120494544506073,-0.62745385318103164,1759500757557217287
0.19238674640655509,-0.034416079521179199,1.1648105561442046,1759500757587278803
-0.62011629343032837,-0.14827287197113029,-1.9341392366745107,1759500757618005842
-0.15935444831848139,0.12174993753433221,-1.3412991983249105,1759500757649812197
0.13278681039810181,0.21637648344039909,10.304845061778662,1759500757677489799
-0.38643938302993769,-0.099466025829315102,-6.2703123151523936,1759500757707496676
0.2560159564018249,0.029444098472595201,-10.225396805028828,1759500757730585801
-0.3837177157402038,0.43146103620529169,16.094514268448648,1759500757757635225
0.53986132144927979,0.1092596054077148,-7.0114590771729297,1759500757787580021
0.055194199085235499,-0.058325946331024101,-8.6889488303027331,1759500757809861248
-0.64680778980255127,0.34169989824295038,10.985873758031582,1759500757837729711
0.33430910110473627,0.047328650951385498,-1.8230255159146789,1759500757866706225
-0.50859856605529785,-0.091464936733245794,-4.2982903013611704,1759500757897765627
0.21062397956848139,0.1021022796630859,2.0145126208363902,1759500757927796194
-0.20795220136642451,0.1771408319473266,0.60436417734129211,1759500757957886623
-0.2242203950881958,0.013684213161468501,-0.087891402079538286,1759500757987915148
0.042984783649444497,-0.036308586597442599,-0.19634387191280819,1759500758017991951
-0.53277122974395752,0.1078718304634094,-4.2044887149065664,1759500758049826205
-0.092489361763000405,0.071441352367401095,1.3548362618584628,1759500758081145285
-0.44530874490737909,-0.13591593503952021,10.45882044364425,1759500758108201387
-0.064328253269195501,-0.064505279064178397,-6.9306206519662386,1759500758138210895
0.043924450874328599,-0.12829142808914179,0.71367953599982581,1759500758168255956
-0.59834128618240356,0.076485514640808105,-0.27305887740907819,1759500758198313840
-0.058673143386840799,0.085661768913269001,0.39086047032938748,1759500758228361697
-0.73961621522903442,-0.20057171583175659,-0.85395221093092677,1759500758258431130
0.061202883720397901,-0.29350274801254272,-2.9151866158992608,1759500758290016139
-0.16641914844512939,0.1797329783439636,0.013383338894722667,1759500758321655344
-0.27912592887878418,0.15231895446777341,11.846840102804256,1759500758348562067
0.1331982016563415,0.1215970516204834,-6.6354555533498827,1759500758378580174
-0.2711980938911438,-0.032553374767303397,-0.15192680293037455,1759500758408623189
0.19646948575973511,0.20601952075958249,2.8444686367976604,1759500758437687143
-0.1145485639572143,0.14840942621231079,-4.6107183132312333,1759500758468734583
-0.22922211885452271,-0.041074633598327602,1.6105956119587026,1759500758498859672
-0.3447611927986145,-0.19387024641036979,-2.5230409451095976,1759500758530344746
-0.34715855121612549,0.23419374227523801,2.0010106314911287,1759500758560691250
0.29300594329833979,0.041080832481384201,5.7926934030274575,1759500758589003451
-0.40915971994400019,-0.27770555019378662,-4.7414111523781219,1759500758619042281
-0.30531591176986689,-0.013848066329955999,0.46029740835494504,1759500758649069519
-0.46077859401702881,-0.26827090978622431,-0.12416714154481759,1759500758679132412
-0.38058853149414062,0.17956411838531491,-0.7107568275235846,1759500758709146686
0.22328484058380119,-0.16298538446426389,-0.31137228710156895,1759500758739254891
-0.91399902105331421,-0.1447227001190185,-1.2149217353996731,1759500758769810790
0.2056741118431091,-0.059346377849578802,0.096967327917873158,1759500758800705649
-0.23263084888458249,0.14838743209838859,4.2563439842065804,1759500758829407756
-0.091361343860626207,-0.037138104438781697,-2.5935383533157332,1759500758859427410
-0.18321496248245239,-0.26812934875488281,0.41773761451469221,1759500758889536694
-0.37888365983963013,0.1463005542755127,-0.30878687223283086,1759500758919613636
-0.17281925678253171,-0.18970698118209839,0.9449611583749189,1759500758949743146
-0.76142251491546631,0.094698429107666002,-0.3870164382294099,1759500758979777562
-0.025918185710906899,-0.087513267993927002,-0.27640554464159667,1759500759009881934
-0.60534125566482544,-0.30726331472396851,-4.2657321528011449,1759500759042196622
-0.20418000221252439,-0.095964312553405706,4.8653078798192642,1759500759072058052
0.2978522777557373,0.061636984348297098,6.4492135397557293,1759500759099924597
-0.62590289115905762,-0.010440766811370799,-5.9087697966759976,1759500759129861308
-0.1248978972434997,-0.1424762606620788,-0.087796141180798704,1759500759159919536
-0.73251497745513916,-0.10072249174118041,-0.53742334972180228,1759500759189960610
0.33238679170608521,0.036587178707122803,0.16951560260012127,1759500759220192551
-0.27297389507293701,0.092649459838867104,0.85383542670247792,1759500759250151714
-0.52420592308044434,-0.0091732740402221003,-3.6562796546768839,1759500759281927319
0.1727958917617797,-0.1019444465637207,0.14487503661567597,1759500759313858379
-0.41291791200637817,-0.3038069605827331,7.685413265858843,1759500759350330434
-0.1922889351844787,-0.058295071125030497,-5.3571164735266272,1759500759380325699
-0.18059390783309931,-0.044274270534515298,-0.81483386984286499,1759500759410458108
0.2030634880065918,-0.0080657005310058004,-2.8593034077961197,1759500759442045197
-0.82383906841278076,-0.28315156698226929,-0.49260772657643337,1759500759473635879
-0.057352900505065897,0.13716018199920649,14.21298738454762,1759500759499746864
0.089344382286071694,0.14050537347793579,-10.65712779967696,1759500759530579285
-0.46459460258483881,0.020310878753662099,1.4266062842768465,1759500759560610727
0.070461571216583196,-0.0075226426124571999,0.38363854170717149,1759500759590812925
-0.2722258567810058,0.22215801477432251,-0.41499360048158024,1759500759620786276
0.27176272869110107,0.1087943315505981,0.063408030650983299,1759500759650917475
-0.25458770990371699,-0.12540674209594721,-2.7092547015817785,1759500759682207341
0.087207436561584403,-0.058540582656860303,-0.5906492859886493,1759500759713652338
-0.15622407197952271,0.0022752881050109,14.842070278505572,1759500759740029843
-0.87020778656005859,0.13882797956466669,-10.863894711512211,1759500759771032788
0.0048369765281677003,-0.0202636122703552,2.806515005207137,1759500759801082612
-0.33049547672271729,-0.243314504623413,-0.76109653433909241,1759500759831131439
0.0049787163734436,-0.27081298828125,0.088304623416439604,1759500759861247490
-0.1019269227981567,0.084071993827819796,0.61242935830181711,1759500759891246890
-0.54318535327911377,-0.2034728527069091,-2.0092215483945131,1759500759921788823
-0.048134624958038302,-0.1673246026039123,-0.022736980035899631,1759500759952682105
-0.68218350410461426,-0.062185764312744099,4.0182166693280603,1759500759981410083
-0.053797721862792899,0.27087301015853882,-2.128587715542603,1759500760011406463
0.087862432003021199,-0.048109352588653502,-0.38756759572989224,1759500760041443999
-0.39581030607223511,-0.1137818098068237,-1.2028428120311967,1759500760072121368
-0.0147126913070678,-0.1683582067489624,2.2340894391082684,1759500760102189975
-0.3434632420539856,0.2967462539672851,-0.5988455870719267,1759500760132226115
0.4534770250320434,0.024929463863372799,0.21831444787261992,1759500760162379029
-0.7301906943321228,-0.12908762693405151,-4.6979882467857044,1759500760194413932
-0.021012365818023598,0.100782573223114,4.9218220598172131,1759500760224098581
-0.13828945159912109,0.053638339042663498,4.3247548652891812,1759500760252282809
-0.43819689750671381,0.28777784109115601,-4.4129773074375507,1759500760282316305
0.0302834510803222,-0.28279834985733032,0.10580517929161211,1759500760312347663
-0.36339586973190308,-0.19946521520614621,-0.75289098628224815,1759500760342337723
-0.24808692932128901,-0.1119192838668823,-0.044049965065044834,1759500760372442090
-0.53247654438018799,0.1433728337287902,-0.21266174087028289,1759500760402475288
-0.1491864323616027,0.029555261135101301,-2.5129275292860407,1759500760433836736
-0.054378688335418701,-0.11658686399459831,0.44336137801744729,1759500760465153836
-0.31231153011322021,0.1062578558921814,9.1306437506780238,1759500760492639348
-0.16016691923141479,0.1096178889274597,-4.5423858599026543,1759500760522602489
-0.41285532712936401,0.25028514862060541,1.7045194033471618,1759500760551708634
0.31890648603439331,-0.1132410764694213,-4.0973954350099264,1759500760582643942
-0.48699295520782471,-0.0998582243919372,1.4973839738946029,1759500760612614555
-0.025608003139495801,0.062420189380645703,0.021245111366808424,1759500760642651610
-0.026632845401763899,0.088379979133605902,-1.3105453878903146,1759500760673675129
-0.96842014789581299,-0.13676613569259641,-2.9357713871339484,1759500760706095006
-0.043051183223724303,-0.1214577555656433,15.604765971510702,1759500760732831576
-0.29608035087585449,-0.17819035053253171,-6.4669187322189172,1759500760761724422
-0.0584385395050048,0.047087132930755601,-1.8346065894382915,1759500760791718033
-0.32426053285598749,-0.024668574333190901,-1.9310791674458805,1759500760822770334
-0.33942645788192749,-0.23739045858383179,0.22161918910714701,1759500760853084761
0.2364851832389831,-0.19916838407516479,1.2334853815843687,1759500760882906563
-0.55649477243423462,0.32173699140548701,-1.1963738030172,1759500760912701589
0.13156473636627189,0.25686061382293701,-5.2680333094537604,1759500760945980967
-0.32719302177429199,-0.1906550526618957,14.157049324937219,1759500760973189145
-0.21596848964691159,0.070803880691528306,-6.4821819280653834,1759500761003088885
-0.0094949007034300995,0.0047384500503539996,0.40433879020680796,1759500761033194364
-0.35072106122970581,0.3267368078231811,-0.012585966948964461,1759500761063215756
0.60389184951782227,0.010685384273529001,0.63133816535546416,1759500761093254073
-0.74470013380050659,-0.1719938516616821,-0.83041579355841555,1759500761123323350
-0.1140322089195251,0.1203638315200805,-2.0433628600473757,1759500761154126873
-0.3632127046585083,0.021248817443847601,-2.4335576626718902,1759500761185953990
-0.27094841003417969,-0.1380513906478881,9.603317605265314,1759500761213520830
-0.35810625553131098,-0.17601668834686279,-4.5683126715725768,1759500761243480656
-0.3439111709594726,0.077670454978942802,-0.018049908471858219,1759500761273514319
0.025385618209838801,0.0135634541511535,0.31433646710839935,1759500761303567350
-0.47084963321685791,-0.079554736614227295,-0.051124067916281178,1759500761333639643
-0.28898358345031738,-0.1162315607070922,1.8703456592081986,1759500761362695250
0.091763138771057101,-0.097353458404541002,-4.216532924383702,1759500761393776148
-0.39605706930160522,0.36039072275161738,-2.3155843984735314,1759500761426024736
0.24177402257919309,-0.075875818729400593,5.8224695164772786,1759500761455829500
-0.23031437397003171,0.020613431930541899,3.8521095257838209,1759500761483912209
0.0659641623497009,0.17030966281890869,-3.4265630451721232,1759500761513962697
