acc_x [m/s^2], acc_y [m/s^2], angular_z [rad/s^2], stamp, 
0.0075544714927673002,-0.0038623213768004998,1.6443161362319917e-05,1759500639455315334
0.022164344787597601,0.0089353322982787999,2.1545051412553075e-09,1759500639485355046
0.0131474137306213,0.030451953411102201,-2.7249803053961608e-10,1759500639516112250
0.022103965282440099,-0.0234493017196655,5.6410664543516791e-10,1759500639547488593
-0.0032101869583128998,-7.6115131378173828e-05,-2.0068059109961e-05,1759500639574739572
0.0094259381294250003,0.0125974416732788,1.737652280568052e-05,1759500639606206307
0.02560555934906,0.0053754448890686,1.2178911060191522e-09,1759500639636045481
0.032387435436248703,-0.0091086030006407998,-1.6480585845730473e-05,1759500639666116386
-0.029071152210235499,-0.0017628073692321001,1.6518700684395555e-05,1759500639696109607
-0.030951917171478199,-0.019532442092895501,-1.2457644843018597e-10,1759500639726170982
0.014013111591339099,0.041723608970642,6.8186231345944842e-10,1759500639756259115
0.0176208615303039,0.0094848871231078997,1.5760438431344655e-10,1759500639787874837
-0.02560555934906,0.0058853626251220001,-2.2135874361882451e-11,1759500639818626093
-0.0056456327438353998,-0.0136970877647399,2.3124684757372363e-10,1759500639846203445
-0.0088835358619689005,0.0151695609092712,-2.4012757014784086e-10,1759500639876230124
0.0093812942504881997,0.00082057714462280002,-1.0640113978243189e-09,1759500639906262051
0.016697764396667401,-0.0114601850509643,-9.4512886373734192e-10,1759500639936235126
-0.0012986063957214,-0.016646325588226301,1.6471729889092961e-05,1759500639966311610
-0.0048524737358093002,-0.0055135488510131003,-4.1959114830583e-08,1759500639996465615
0.031143009662628101,0.023491024971008301,-1.5628559865874137e-05,1759500640028088064
-0.010398268699645901,0.0091016888618468995,1.454226505353046e-05,1759500640060098280
-0.019596219062805099,-0.016093909740447901,3.7662979715086596e-06,1759500640086482723
-0.0033307075500487999,-0.0033584237098693002,-1.8857073376681337e-05,1759500640116433699
0.0039389729499816001,0.0020728707313536999,1.6505664706229154e-05,1759500640146480450
0.025449097156524599,0.0126738548278808,-1.6528395040372713e-05,1759500640176487430
0.0126876831054687,-0.018118798732757499,2.4247077559358647e-09,1759500640206499238
-0.039352238178253098,-0.0056246519088744996,1.6502735211641495e-05,1759500640236548671
-0.0048395395278929996,0.022911906242370599,-5.0368268023989413e-07,1759500640267572989
0.0045148730278014998,0.0027285814285277999,-1.4905270096623751e-05,1759500640299796187
0.0047816634178160997,0.0097704529762267997,2.0456672455536515e-05,1759500640326787283
-0.0040820837020873997,-0.018835544586181599,-1.841748753427778e-05,1759500640356763272
-0.0308379530906677,-0.0078785419464110999,-1.3663032756963495e-09,1759500640386780318
-0.018092572689056299,-0.0077267885208128998,-2.0724672119909606e-09,1759500640416859612
0.017869234085083001,-0.0076633691787718998,-1.4800830419939127e-09,1759500640445883643
0.024838864803314199,-0.021933674812316801,-4.0821280345932306e-11,1759500640476944234
-0.036380708217620801,0.017875194549560498,1.5829824565654824e-05,1759500640507624243
-0.0057243108749388998,0.017883539199829102,-1.4940492158166427e-05,1759500640540134448
0.0086516737937927003,0.0142414569854736,-5.0152896859286154e-10,1759500640567129325
-0.014829635620117101,-0.0307276844978332,2.3549046169340936e-09,1759500640597146751
-0.0023301839828490998,-0.0091707110404968002,2.7612005379583695e-10,1759500640627250156
0.014006316661834699,0.017885684967040998,-6.4596024512399558e-10,1759500640657281036
0.014059364795684801,0.015821337699890099,9.8893158940071268e-10,1759500640687341161
0.0087096095085144008,-0.0077286362648010002,1.858527845994608e-09,1759500640717426670
-0.031557857990264802,0.0101171731948852,1.1278203265931551e-09,1759500640747613029
-0.0030866861343383,0.0117478966712951,0.03169567890065516,1759500640779545731
0.073951303958892795,0.32046031951904291,1.6398925196825545,1759500640809600103
0.042812228202819803,0.42043411731719971,10.902026159914092,1759500640847544778
-0.063628435134887695,0.53456985950469971,10.376893339600478,1759500640876700389
-0.084633469581604004,-0.072121322154998696,3.9287263491966242,1759500640907902334
-0.3931965827941894,0.29586571455001831,4.8179090975462087,1759500640939581409
-0.66193747520446777,0.54494756460189819,9.508038128488284,1759500640969783063
0.30903822183609009,0.15537756681442261,12.578131020451226,1759500640997111444
-0.79152029752731323,0.2011308670043945,-0.64038721063041537,1759500641027897875
-0.37199205160140991,0.32213318347930908,7.5921483919165631,1759500641058077176
-0.47664088010787958,0.1432428956031799,4.1935453250842283,1759500641088160681
0.059340775012969901,-0.2466324567794799,1.4864755844986453,1759500641118029663
-0.84610199928283691,-0.26995128393173218,-1.8869671536701533,1759500641148110635
0.1967780590057373,-0.1746288537979126,-4.5792217809476901,1759500641179992515
-0.083444595336913993,-0.047373950481414698,0.075106179569023254,1759500641211134391
-0.41185957193374628,-0.2165308594703674,7.8685988569435139,1759500641238282155
-0.22459721565246579,0.017743706703186,-6.857617964325482,1759500641268309044
-0.2252243757247924,0.42351245880126948,0.18097714108567486,1759500641298416525
0.50614601373672485,-0.1572391986846923,2.0187884862335888,1759500641328359170
-0.45443165302276611,0.12297815084457391,-0.54928260882060465,1759500641358407607
-0.0045467019081115003,-0.074689507484435994,0.36349288341540698,1759500641388484591
-0.28091055154800409,0.17464315891265869,-2.0802361078374259,1759500641419593291
-0.31562751531600952,-0.28354644775390619,-2.1002070225773792,1759500641451755809
0.2104833126068115,0.097205638885498005,15.628377659450258,1759500641477712128
-0.12059479951858521,0.22148030996322629,-11.952986185375597,1759500641508672502
-0.023067593574523901,-0.072206199169158894,3.0440311691092035,1759500641538733562
-0.76036864519119263,-0.0559501051902771,-0.036060208886740351,1759500641568834225
0.096709012985229395,-0.10957431793212891,0.39457183458575878,1759500641598890252
-0.1981891393661499,0.038985133171081501,-0.55313053836831594,1759500641628882668
-0.057471334934234598,0.1481410861015319,-0.33558664102074653,1759500641658876365
-0.1262015104293823,-0.011990010738372799,-5.2791864363210719,1759500641692294917
-0.22234177589416501,0.0120660066604614,15.324111236174272,1759500641719069927
0.0497344732284545,0.1043292880058288,-7.7407077343695754,1759500641749080579
-0.2365868091583252,-0.033192276954650803,-0.39926071428394316,1759500641779142912
-0.027982592582702599,0.089704573154449394,0.19201495135630006,1759500641809225488
-0.26097434759140009,-0.054063856601714998,1.5324000958249089,1759500641839273772
-0.3261532187461853,0.18841469287872309,-1.5990115192225833,1759500641869539804
-0.056359946727752602,-0.2604068517684936,-0.071576826785160974,1759500641899630951
-0.52814620733261108,-0.185734748840332,-3.1245659760825362,1759500641931802930
-0.14424371719360349,0.1853983402252197,10.484958335014548,1759500641959492658
-0.27833551168441772,0.0028850436210631999,-6.1684893089353912,1759500641989663270
-0.23266148567199699,-0.2366868257522583,0.34837325507630684,1759500642019556954
-0.45769071578979492,0.026879549026489199,-0.14218022017867951,1759500642049658994
-0.078092634677886894,0.15607666969299311,1.2103594817627505,1759500642079673138
-0.29040873050689697,0.069921970367431599,-1.0814796572761431,1759500642109743692
-0.026251375675201399,0.082807719707489,-1.3437068001380086,1759500642140299437
-0.49802350997924799,-0.1569981575012207,-0.95177330347530997,1759500642171625884
-0.077726781368255601,-0.32077616453170771,6.5662973294840441,1759500642200045085
-0.26827871799468989,0.36213970184326172,-3.6590963147075564,1759500642229935339
-0.30528253316879272,-0.15096235275268549,-0.22520507248547475,1759500642259942839
-0.32901453971862787,0.1003003120422363,-0.82292876151241701,1759500642290044364
-0.1799891591072082,-0.0211334228515625,0.9878223878035699,1759500642320151420
-0.23128592967987061,0.016544103622436499,0.38651560644735283,1759500642350162948
-0.29428356885910029,-0.035955786705017,-1.2841242907313615,1759500642380234720
-0.11878103017807,0.017586290836334201,-1.6327445518206605,1759500642411654076
0.0297096371650695,-0.036378383636474602,0.73495023065821041,1759500642443038256
-0.46459400653839111,0.34559190273284912,9.1744173264200857,1759500642470365245
-0.39208024740219111,0.16046428680419919,-6.6004466349205773,1759500642500558239
-0.1754459142684936,-0.1260842084884643,0.70995837781148652,1759500642530527099
0.087383866310119601,-0.33577901124954218,-1.2213328351141,1759500642560601751
-0.2113616466522216,0.48789811134338379,-2.3616973017879612,1759500642591480709
0.33012622594833368,-0.25225996971130371,2.0079106420429351,1759500642621789374
-0.2479299306869506,-0.1116496920585632,0.20203398569288483,1759500642652052055
0.12619328498840329,0.39690148830413818,-2.400685268280689,1759500642683414430
-0.131473958492279,0.094704449176788302,8.4193221405277665,1759500642711299024
0.093702673912048298,0.1499105095863342,-4.6905489490292451,1759500642741324166
-0.024922072887420599,0.28465867042541498,0.26920048509960809,1759500642771262542
-0.068523883819579995,0.27217650413513178,0.57011490166114009,1759500642801381205
0.034049987792968701,0.0083553791046142006,0.38733408627348548,1759500642831333083
-0.28456097841262817,0.054731547832489,-1.3512867547825604,1759500642861354013
-0.28499794006347651,0.31111985445022577,-1.307195654650475,1759500642891732595
0.462395429611206,0.088263690471649101,-3.2660854004337705,1759500642924302250
-0.18368375301361081,-0.143555462360382,12.882962149868012,1759500642951386197
0.033458769321441602,0.1015349626541137,-7.0941244316584591,1759500642981453311
-0.47589743137359619,0.42149162292480469,0.97780884731862117,1759500643011466199
-0.363773763179779,-0.013438642024993799,0.78203257666781489,1759500643041497667
-0.1669432520866394,0.0121392011642456,-0.57733708220598012,1759500643071604065
-0.22741299867629999,0.3276867270469665,-0.017845813955873851,1759500643101544638
-0.0280682444572448,0.47854894399642939,0.4722092327826069,1759500643131667297
-0.24033921957015991,-0.12268161773681641,-4.859794499844158,1759500643164354687
-0.1810910105705261,-0.22657525539398191,15.394128500177885,1759500643190693349
-0.49120372533798218,0.035765349864959703,-11.042257486266237,1759500643221629167
-0.41908609867095947,0.42113763093948359,3.6426587959480989,1759500643250701366
0.17030292749404899,-0.30505681037902832,-4.1362781714758494,1759500643281795089
0.0503578782081604,-0.20695322751998901,1.9879003074137456,1759500643311777854
-0.51993918418884277,0.44560837745666498,-0.97456607082581181,1759500643342063456
-0.29528659582138062,0.13474512100219721,1.3467627471993893,1759500643372010997
-0.066298246383666895,-0.1142839789390564,-3.3204411694725389,1759500643403998886
0.0113138556480407,0.051415681838989202,3.197452629132544,1759500643434510820
-0.54544585943222046,0.26848149299621582,10.480500541022749,1759500643461021616
0.22331881523132319,0.26669025421142578,-9.9021888588694491,1759500643492035602
-0.49920976161956782,0.2412074208259582,1.7164785546030297,1759500643522204351
-0.2457398176193237,0.24121278524398801,0.53371206290648043,1759500643552202362
0.0066650509834288996,0.062339961528778,-1.3359778536881202,1759500643582384850
-0.061418294906616197,0.58273816108703613,-1.4913859716876603,1759500643612860976
-0.16094809770584101,0.093876719474792397,-0.39278146088520649,1759500643643932989
0.075986266136169406,0.43130218982696528,-0.75814262648027764,1759500643675989678
0.031104683876037501,-0.047214508056640597,14.092257020069869,1759500643702509175
-0.58330231904983521,0.107227623462677,-8.751013734220134,1759500643732517234
-0.070872426033020006,0.34885120391845698,-0.057014075627099016,1759500643762554229
-0.49304348230361938,0.17600154876708979,-0.1483942247919611,1759500643792617833
-0.63113570213317871,0.16542768478393549,0.62059397144138895,1759500643822619617
0.22628879547119141,0.045516788959503098,2.3861500991855915,1759500643851690230
0.3841482400894165,0.39149320125579828,-7.3577295667996685,1759500643884121592
-0.1231549978256225,0.051085233688354402,-0.062685419042956853,1759500643915773694
-0.47012114524841309,0.49213248491287231,11.070980018556218,1759500643942880012
-0.028942942619323699,0.35972625017166138,-5.141502590295687,1759500643972913835
-0.31691735982894897,0.084909617900848305,0.50064308885836173,1759500644002967516
0.0553627610206604,0.050315976142883301,0.79472034347302711,1759500644033050051
-0.061728358268737703,0.044125974178314202,-0.33981759924731669,1759500644063079508
-0.066465854644775293,0.39120525121688843,-1.6663742092773128,1759500644093244594
-0.27324140071868891,0.15312933921813959,-2.5118608922439982,1759500644124440224
-0.35833942890167231,0.2799734473228454,0.50508811430761624,1759500644156063900
0.00034284591674799998,-0.0680698752403259,11.866738727798172,1759500644183418662
-0.12677162885665891,-0.0210905671119689,-5.8835053320572843,1759500644213316465
-0.2725799679756164,-0.0127789378166198,-1.8008026106701611,1759500644243397846
-0.26457327604293818,-0.024378061294555602,-0.97201115130748905,1759500644273449080
-0.35037392377853388,0.1033892035484314,-0.28401111282720187,1759500644303467041
0.019977331161498999,0.17661631107330319,0.71550695602848291,1759500644333542394
-0.32039409875869751,0.51215183734893799,-0.35908361951503209,1759500644363986160
-0.0092114210128784006,0.047492563724517801,-1.7822816908933921,1759500644395875282
-0.37968087196350098,0.071953773498535101,9.9235945148176921,1759500644423728727
0.40801036357879639,0.46191954612731928,-6.0772773116372614,1759500644453725526
-0.31480002403259277,-0.11135101318359369,-1.4480035046023549,1759500644483799153
-0.31569665670394897,0.060257673263549798,-0.64020495396570387,1759500644513823681
-0.53898072242736816,0.31277972459793091,-0.054796991737061485,1759500644543925664
-0.2172812819480896,0.45105916261672968,0.67119807974966261,1759500644573999722
-0.13375401496887199,0.22310060262680051,-0.65032435939612454,1759500644604331784
-0.22507792711257929,0.34529209136962891,-1.8356660400705094,1759500644636464100
0.137126624584198,0.25080269575119019,3.1589314126973274,1759500644666958486
-0.57580149173736572,0.087913930416107094,7.7503248054413136,1759500644694273384
-0.1417246460914611,0.28044182062149048,-5.7416845627732975,1759500644724181382
-0.1674422025680542,-0.1006780862808227,-0.54915424760883713,1759500644754465150
-0.19060707092285151,0.1823248863220214,0.11532389396552509,1759500644784301934
-0.18658638000488281,0.25773262977600098,-1.5074932567260029,1759500644814539507
0.1103996038436889,0.1181906461715698,0.77902448318551298,1759500644844426013
-0.30320525169372559,0.28632879257202148,-3.4173711540328848,1759500644876090573
0.18861919641494751,0.28692281246185303,-0.57420796867552337,1759500644907808354
-0.1613363623619079,0.38878083229064941,11.941748199235969,1759500644934613529
-0.50256615877151489,0.3652305006980896,-5.8296196985423707,1759500644964595145
-0.34205532073974609,0.53882986307144165,0.29300549674420029,1759500644995003620
0.29316669702529907,0.20101499557495109,4.6741684942053237,1759500645023705289
-0.69105356931686401,0.031267106533050502,-5.1069918710852047,1759500645054831890
0.32284039258956909,0.17216390371322629,3.113697839761147,1759500645084798135
-0.40018904209136957,0.25761222839355469,-3.2210675431088944,1759500645115884905
-0.41740167140960688,0.24426525831222529,-3.5484654168912102,1759500645148360566
0.15332019329071039,0.13323783874511719,14.616441394190975,1759500645174979999
-0.3638232946395874,0.37582665681838989,-7.9349897653711601,1759500645205010029
0.00089895725250239999,0.18457245826721189,0.0029579746763291424,1759500645235047179
-0.0422022342681884,0.43260288238525391,2.4537893757781126,1759500645264141852
-0.77187204360961914,-0.0254437923431396,-3.7642414184498674,1759500645295245058
-0.38843226432800287,0.17323309183120719,3.6898400217459044,1759500645325262079
-0.26035809516906738,0.37312150001525879,-1.523364423951904,1759500645356061128
0.28608191013336182,0.25678861141204828,-3.4765627740443437,1759500645388070382
0.50516259670257568,0.3624387383460998,8.9087495549407212,1759500645415442576
-0.18145394325256339,0.1017788648605346,-7.8095061877610323,1759500645445441753
-0.48956149816513062,0.19984781742095939,-0.87881464217718908,1759500645475571888
-0.68696582317352295,0.2677653431892395,0.88888799367118232,1759500645505544477
-0.1607893705368042,0.6347692608833313,0.92618504754030173,1759500645535632049
-0.40691602230072021,-0.0039636492729187003,2.0702805532009734,1759500645564704395
-0.043601274490356397,0.15222501754760739,-5.3850105754580007,1759500645596650235
-0.080223977565765298,0.27605503797531128,1.0789002411093371,1759500645627942282
-0.3530956506729126,0.228047490119934,6.5197850567757305,1759500645655876214
0.0102035403251647,0.21580922603607169,-5.4847470138757677,1759500645686566962
-0.31470519304275513,0.29645943641662598,1.6757603825905307,1759500645716553677
-0.2560354471206665,0.30235385894775391,-0.41831992752237573,1759500645746462731
-0.36066615581512451,0.55346745252609253,0.47178738818164873,1759500645776441213
-0.36679506301879877,-0.0035981535911559998,-0.025816575360436415,1759500645806449388
0.38226830959320068,0.34082037210464478,0.10998529534508679,1759500645836526626
-0.30488228797912598,0.21959865093231201,-2.0467216166024218,1759500645867935067
0.012735486030578599,0.2127537727355957,0.82490752192692829,1759500645898967304
-0.39308243989944458,0.3813093900680542,7.8148438629841728,1759500645926463291
-0.32501888275146479,0.3425526618957519,-5.3927483524037072,1759500645956550385
0.0058456659317016003,0.4452181458473205,-0.026380177679552766,1759500645986557771
-0.77735394239425659,0.36812442541122431,-1.5750833327864118,1759500646108832828
-0.29818665981292719,0.40220659971237183,5.9554402525212966,1759500646138965871
-0.0077548027038574002,0.2146426439285278,5.5289466715505844,1759500646166786947
0.60476046800613403,0.039144635200500398,-5.5228703465621143,1759500646196763855
-0.53121668100357056,-0.022712588310241699,-3.6848446432938653,1759500646226752795
0.3787810206413269,0.3846973180770874,-1.3939146476080315,1759500646256851764
-0.6473153829574585,0.36729055643081659,0.38659937501558894,1759500646286862784
-0.1009368300437927,0.28872090578079218,0.19797250070219194,1759500646316927341
0.010792195796966501,0.51700091361999512,-0.80153174378795056,1759500646347870696
-0.56972396373748779,0.041330456733703599,-2.1115343193266938,1759500646380115398
0.33082950115203857,0.39549392461776728,7.9605242671536391,1759500646417089098
-0.57309973239898682,0.28299969434738159,-4.6582738282591478,1759500646447132362
0.1124807000160217,0.18420308828353879,1.8823866460447218,1759500646476187699
-0.049509525299072203,0.27208322286605829,-6.0508634907023113,1759500646508180783
-0.36801928281784058,0.0196275115013122,-0.621673597855945,1759500646540153490
0.046601712703704799,0.65278667211532593,9.5018987821783494,1759500646567447380
0.040787100791931097,0.13413041830062861,-6.5276085990578174,1759500646597438806
-0.58492469787597656,0.28643125295639038,-0.33454658769145001,1759500646627450599
0.28351092338562012,0.26073068380355829,0.8471931044266916,1759500646657529546
-0.32893556356430048,0.37883883714675898,0.44679616256322124,1759500646687577488
-0.19064563512802121,0.32488554716110229,0.50317399643284577,1759500646717605294
-0.43014931678771973,0.2433022856712341,-0.1841058867424793,1759500646748283492
0.044068515300750698,0.32556867599487299,-1.8347612351293352,1759500646779882585
-0.0126891732215881,0.34972208738327021,6.6515202946837508,1759500646807798081
0.32433611154556269,0.22220546007156369,-5.2599237384130806,1759500646837785928
-0.099927067756652804,0.44041532278060908,-0.81867494205449698,1759500646867832392
-0.36426842212677002,0.2161338329315185,-7.5840311756786614,1759500646889964303
-0.036662817001342697,0.54102379083633423,6.7990215547740798,1759500646927960902
-0.49733495712280268,0.34957575798034668,-3.8241942530091522,1759500646958486191
0.067005753517150796,0.40886485576629639,2.7773746998472233,1759500646988102818
0.33079230785369867,0.38431847095489502,-3.1258894792628209,1759500647019899766
-0.36767369508743281,0.20154845714569089,3.0262169115588127,1759500647049642792
-0.089134633541107094,0.40305006504058838,2.2999468093226079,1759500647078309564
-0.093530595302581704,0.27835279703140259,-3.8970614766022798,1759500647108284479
-0.48755335807800287,0.14615237712860099,-1.3852056402507922,1759500647138342976
0.4605333805084228,0.27556878328323359,-0.434909005623768,1759500647168460463
-0.48786205053329468,0.4034848809242248,0.20661589771941513,1759500647198515423
0.2057929039001464,0.18417865037918091,2.4705049283428879,1759500647227718972
0.19182825088500971,0.27263367176055908,-4.6106504586603609,1759500647260345584
0.2357630729675293,0.4107973575592041,2.3564121689563899,1759500647291381548
-0.40349864959716791,0.39246284961700439,6.6368940132955725,1759500647318660985
-0.27303743362426758,0.31586426496505737,-4.4111538574764992,1759500647347683274
-0.083194375038146903,0.26504355669021601,-13.903375798742593,1759500647372149916
-0.24392271041870109,0.079619765281677204,18.998883225543967,1759500647398837995
0.052731633186340297,0.63984131813049316,-6.136562541162955,1759500647428831261
-0.16539782285690299,-0.0161407589912414,-0.47919662275410063,1759500647458864896
0.095029234886169406,0.29393184185028071,-0.90020724439304489,1759500647488970141
0.38987797498702997,0.51780086755752563,-0.66634638036526417,1759500647518970371
-0.35131829977035522,0.32508367300033569,0.047664751718233693,1759500647549029564
-0.12815499305725089,0.1297610998153686,-1.5869885584812675,1759500647580527501
-0.16251200437545771,0.54434055089950562,0.23395437754415643,1759500647612004341
-0.51339888572692871,-0.030843317508697499,8.059479109423819,1759500647639200929
0.30912262201309199,0.3755888938903808,-4.2167331654422586,1759500647668212017
0.1382220983505249,0.1810197234153747,-14.530545019987136,1759500647692139124
-0.33172613382339478,0.52970612049102783,8.9043400187490089,1759500647729399869
-0.26317638158798218,0.25908327102661127,-1.5661043081717276,1759500647759358620
-0.11091214418411249,0.2767755389213562,0.49805082550130048,1759500647789602416
-0.1728255152702331,0.25826048851013178,-0.75810542987100227,1759500647819986378
0.154176115989685,0.416516363620758,-3.1114127750237954,1759500647852167099
-0.2042728066444397,0.21571874618530271,7.9344536352063741,1759500647879639922
0.1246595978736877,0.045915007591247503,-3.3049427354602705,1759500647908696754
-0.15087693929672241,0.45307075977325439,-0.90789158569417783,1759500647938694475
0.010243117809295601,0.17828196287155151,-1.6948421511044318,1759500647969825516
-0.39806342124938959,0.44751393795013428,0.31222977782902611,1759500647999799582
-0.027109682559966999,0.3176207542419433,-0.34591874522844845,1759500648029860326
-0.2030600905418396,0.18335163593292231,-1.3438161637392878,1759500648060916717
0.15182292461395261,0.071995913982391302,0.16431294122005574,1759500648092341559
0.47828525304794312,0.6492239236831665,7.7734728165781029,1759500648120113543
-0.61913657188415527,0.099741041660308796,-5.9700380763328615,1759500648150053548
-0.28551262617111201,0.41343587636947632,-0.42239809381650489,1759500648180091752
-0.37142008543014521,0.2285552024841308,0.52840711374515381,1759500648210193321
0.13631737232208249,0.28184735774993891,0.23623977044122957,1759500648240213581
0.44907200336456299,0.41943687200546259,-0.67044964754568359,1759500648270301605
-0.15992295742034909,0.47374939918518061,-0.27707816213359021,1759500648300347222
-0.29685574769973749,0.2738003134727478,-2.1176835036797663,1759500648331945850
-0.095360934734344399,0.18471324443817139,1.1891823992742692,1759500648363285332
-0.25500023365020752,0.21953731775283811,6.764059527645399,1759500648390648028
0.47335952520370478,0.61748522520065308,-5.1409711211335694,1759500648420519598
-0.69881618022918701,-0.015550076961517299,-0.50774406608246869,1759500648450606540
-0.15486061573028559,0.12518119812011719,0.83458673234259628,1759500648480612737
-0.22804427146911621,0.0119133591651916,-0.10370522006258247,1759500648510746730
-0.28930246829986572,0.30510693788528442,0.7304074990490127,1759500648539780504
-0.017782449722290001,0.4487994909286499,-5.4048850348206141,1759500648571977142
-0.36709815263748169,0.0071594715118408004,0.022370952019205692,1759500648604575585
-0.1349901556968689,0.3791007399559021,13.490730868036282,1759500648630921350
0.23243659734725949,0.29791384935379028,-7.3550854217352573,1759500648660960494
-0.14952719211578369,0.44010698795318598,-0.41480926500122417,1759500648691031857
-0.010142147541046099,0.25027990341186518,-1.1876478787621698,1759500648721671040
-0.2221730947494506,0.13393247127532959,0.71108164494563819,1759500648751665384
-0.3120549321174621,0.48303300142288208,-0.13760628626502344,1759500648781797012
-0.30881679058074951,0.36415427923202509,0.063243699913810014,1759500648811990845
0.1027962565422058,0.1507456302642822,-3.575440266409911,1759500648844594992
0.077788829803466797,0.32888156175613398,12.98403366524326,1759500648870683066
-0.017926216125488201,0.43556392192840571,-9.1487222488779238,1759500648901620564
-0.20773547887802121,0.4817502498626709,2.9458793652383841,1759500648930755214
-0.34269636869430542,0.096186459064483601,-1.9936721239058046,1759500648961796772
0.22830754518508911,0.52207452058792114,1.8620393644896001,1759500648991751602
-0.1041089296340942,0.63862371444702148,-1.6546607594982818,1759500649021756950
-0.15263289213180539,0.197651207447052,0.21301334948372241,1759500649052005782
0.51224404573440552,-0.088065147399902302,-2.6391312507219138,1759500649084765897
-0.50126659870147705,0.50032156705856323,7.8720253262482096,1759500649111930059
-0.39233356714248657,0.60421651601791382,-4.8976876926845678,1759500649141869169
0.3237468004226684,0.027107894420623699,1.0666481503918139,1759500649171865932
-0.46741414070129389,0.1064786314964294,-0.86027873277160238,1759500649201890539
-0.0089929699897765992,0.449226975440979,-0.81995272202798875,1759500649231939425
-0.073659658432006794,0.2789080142974853,-0.27454759237651088,1759500649262190548
-0.4228331446647644,0.050389885902404702,0.64084165803826509,1759500649292458382
-0.021071553230285599,0.39409613609313959,-2.0022309504347895,1759500649324252656
0.031818926334381097,0.58265459537506104,5.6566529151069194,1759500649352085349
-0.3689091801643371,0.184719443321228,-3.5982589922543928,1759500649382160019
0.7777097225189209,0.21521198749542231,0.39752862006918188,1759500649412160973
-0.1008177995681762,0.67264842987060547,-0.98287275656272288,1759500649442312510
-0.42729842662811279,-0.085615158081054604,0.51095517556486025,1759500649472307562
-0.1050000190734863,0.44550043344497681,0.54663713059299879,1759500649502350788
-0.25952541828155518,-0.040941119194030699,-0.89587051143315466,1759500649532661498
-0.41405481100082397,0.41401726007461548,-1.8720924952148073,1759500649564190466
0.62648499011993408,0.12403601408004759,0.53614791593237043,1759500649595652807
-0.35405516624450678,0.37640541791915888,7.3902494948498703,1759500649622657704
-0.13461989164352409,0.38724726438522339,-5.2311037899495441,1759500649652640659
0.13247454166412351,0.2304534316062927,1.1008108694771239,1759500649681690723
-0.25290286540985107,0.10551548004150391,-3.9465819265788231,1759500649712752026
0.1818360090255737,0.86399716138839722,2.2349976401141536,1759500649742772845
0.31012171506881708,0.31480503082275391,0.90587707878045776,1759500649772849035
-0.063543200492858803,0.1890338063240051,-3.0360591517653086,1759500649804614134
0.22524493932723999,0.2198866605758667,0.55584167253631567,1759500649836070127
-0.5045856237411499,0.37601327896118159,7.6925947502527379,1759500649863041730
-0.13518702983856201,-0.0029218792915344,-5.184536974062925,1759500649893079610
0.21068000793457031,0.72866243124008179,-0.62220110965809239,1759500649923098861
-0.62054824829101562,0.13254457712173459,0.14477312726794311,1759500649953135022
0.2279849648475647,0.0250248908996582,0.23061970920533428,1759500649983203821
-0.0048156976699828997,0.93906539678573597,-0.40159046549402078,1759500650013284815
-0.41038918495178223,0.0585985779762268,-1.3710919491797551,1759500650044295885
-0.38260531425476069,0.37040919065475458,0.90001502518882359,1759500650075152423
-0.027339041233062699,0.5449528694152832,3.9139278245131495,1759500650103478383
-0.14120703935623169,0.34065133333206171,-3.0107332461290324,1759500650133420029
0.39354592561721802,0.17584067583084101,-0.20907196565664976,1759500650163503011
0.13810670375823969,0.82529860734939575,-0.43991859957648299,1759500650193554295
-0.3701285719871521,-0.1951140761375427,-0.80822291150327275,1759500650223598192
-0.43084555864334101,0.18849140405654899,-0.56470916584744724,1759500650253766542
0.0048441290855407004,0.57344907522201538,0.18669571501485965,1759500650284210675
-0.46190780401229858,0.11221855878829951,-2.4325490443871511,1759500650316859119
-0.10026043653488149,0.20773065090179441,9.6172729380862982,1759500650343982434
-0.13220500946044919,0.54593968391418457,-4.9173478981099681,1759500650373872691
0.53743505477905273,-0.035158216953277498,-0.4928325405447786,1759500650403909958
-0.1085279583930969,0.62794440984725952,-0.40627112229076751,1759500650433963278
-0.41650736331939697,-0.0288194417953491,-0.26092959901413232,1759500650464045251
-0.38034605979919428,0.023381054401397702,1.0159621329938646,1759500650494114414
-0.2848503589630127,0.75988006591796875,-0.26975358328202037,1759500650524330128
-0.14546000957489011,0.075679361820220906,-2.4519885919484912,1759500650556248618
0.17798835039138791,0.313446044921875,2.6350143618951369,1759500650586177334
0.15121102333068839,0.39055991172790527,2.5338349575586379,1759500650614245694
0.1753532886505127,0.17219716310501099,-2.6771242838509206,1759500650644339508
-0.091825485229492104,0.29838389158248901,-0.067810331168586008,1759500650674336260
0.22563678026199341,0.71121907234191895,-0.78524262217831187,1759500650704401666
-0.15954482555389399,-0.066533684730529702,-0.28682457052024973,1759500650734479566
-0.1536528468132019,0.66337323188781738,-0.82955129034034925,1759500650764963867
-0.1279419064521789,0.29954355955123901,-1.173245080796157,1759500650796478813
0.16201639175415039,0.27003705501556391,0.37919694728525849,1759500650827637060
-0.38281363248825068,0.37923544645309448,6.99538781472208,1759500650854749171
-0.029266417026519699,0.13919913768768311,-3.8350101736834179,1759500650884747993
-0.27375966310501099,0.30516380071640009,-1.1130646232077315,1759500650914810961
-0.45500129461288452,0.59469866752624512,-0.039543295185472262,1759500650944870023
0.25921338796615601,0.050719738006591797,0.99015730542839908,1759500650974887331
0.32064336538314819,0.54673916101455688,-1.0894416138674423,1759500651004917078
-0.067107081413269001,0.20361882448196411,-1.4079877060305424,1759500651036177990
0.2255722284317016,0.29844754934310908,-0.33738552130850552,1759500651068119895
-0.49096900224685669,0.65699177980422974,6.8222352095642229,1759500651095140078
-0.2081111669540405,0.2009962201118469,-4.2415423385284932,1759500651125172457
0.61179983615875244,0.248433232307434,-8.1263234429534812,1759500651148887690
-0.29020595550537109,0.1723265647888183,8.563109800118303,1759500651185309212
-0.088360428810119601,0.52702522277832031,-4.1810350695849507,1759500651215318993
-0.066900372505187905,0.2402611970901489,-0.54948905511826884,1759500651245407679
-0.52991515398025513,0.1709113717079162,-1.3355531459402474,1759500651276790469
0.1624717116355896,0.1011073589324951,-0.012515507726838142,1759500651308138662
-0.077813863754272405,0.51521283388137817,5.2194360532839772,1759500651335542222
0.0153621435165405,0.11383193731307981,-3.6782104830120201,1759500651365568576
0.83664423227310181,0.4118340015411377,-0.11109620161237757,1759500651395609244
0.0066479444503783998,0.30259048938751221,-0.54739693561026548,1759500651425654145
-0.51215189695358276,0.35534447431564331,1.9877669269606646,1759500651454693961
0.1063350439071655,0.1488540172576904,-2.5429885786793176,1759500651485967278
-0.45449042320251459,0.49837005138397211,0.93450080237953914,1759500651516200765
-0.4418414831161499,0.13719117641448969,-2.0514067315487456,1759500651548300035
0.4488909244537353,0.221703290939331,6.8536787972398407,1759500651575953343
-0.4084429144859314,0.26861047744750971,-5.1130839935195516,1759500651606651933
0.31116151809692377,0.32859736680984492,0.9666774594888824,1759500651636648719
-0.13446527719497681,0.23716640472412109,-1.0432469989630813,1759500651666642079
-0.4272849559783935,0.32743948698043818,-0.25954583490180239,1759500651696729373
0.0119265913963317,0.25539731979370112,1.664680634606579,1759500651726771923
-0.028612196445465001,0.38448923826217651,-0.93100739134325439,1759500651756844664
-0.0495094656944274,0.13369613885879511,-1.1131489336823568,1759500651787708690
0.22410851716995239,0.35071092844009399,-0.11498025635572591,1759500651819018981
-0.16268444061279291,0.36942207813262939,4.8170569419558635,1759500651847000014
0.48398315906524658,0.36072993278503418,-2.3011256205101009,1759500651876899721
-0.25505107641220093,0.1174724102020263,-0.23816676906162026,1759500651906900527
0.1071173548698425,0.174964964389801,-1.3041438207398872,1759500651936909261
-0.54169845581054688,0.43158459663391108,-0.50161287331525106,1759500651966817253
-0.16619396209716791,0.098413586616516099,0.82501383673206086,1759500651996912996
0.076961398124694796,0.72932565212249756,-1.3332514860195415,1759500652028115813
0.0432948470115661,-0.11589962244033809,-0.66401086055814729,1759500652060133815
0.059937655925750698,0.54265356063842773,8.2275203335681315,1759500652087083732
0.0143314003944396,0.19307523965835571,-5.3663422717659675,1759500652117020666
0.19173169136047361,0.49683183431625361,0.53100950536746971,1759500652146999503
-0.040752470493316602,0.21802604198455811,-0.86050417254232014,1759500652177123868
-0.1934325695037841,0.0187952518463134,-0.27082529492717933,1759500652207025828
-0.38539576530456537,0.4838215708732605,-0.32837222541546285,1759500652237123487
0.2153098583221435,0.0034976005554199002,-0.9838627292692419,1759500652268202228
-0.2484440207481384,0.3407934308052063,-0.8290427903904114,1759500652299786441
-0.023530066013336098,0.1093268990516662,6.3309867947933949,1759500652327236604
-0.46137529611587519,0.30785059928894037,-3.8246783718787882,1759500652357197357
-0.070835232734680106,0.14932578802108759,0.14618699182028339,1759500652387259593
-0.45001178979873657,0.3483970165252685,0.081020754080587079,1759500652417375530
0.33695775270462031,0.41812235116958618,-0.37301675581281274,1759500652447406267
0.044995725154876702,-0.0129423141479492,0.036372895793366646,1759500652477462760
-0.0377070307731628,0.48341846466064448,-1.2333535748651272,1759500652508215398
0.21377372741699219,0.28379613161087031,-0.71259680682392645,1759500652540164064
-0.56389355659484863,0.30461859703063959,5.865586659621302,1759500652567671183
0.012041687965393,0.57634598016738892,-2.2176433283182848,1759500652596749864
-0.226692795753479,0.0187997221946716,-1.381889972648342,1759500652626704534
-0.42587810754776001,0.3694344162940979,-0.88872462313806422,1759500652657798252
0.20129531621932981,0.33763504028320312,1.5383053092961474,1759500652687783346
-0.0111331343650817,0.50176870822906494,-1.054443335947528,1759500652717863972
-0.3759462833404541,-0.2269105911254882,-0.28996785685887361,1759500652748559789
0.47279280424118042,0.6293952465057373,-1.1087479346510798,1759500652779753086
-0.46213614940643311,-0.10029268264770499,3.0219519298756512,1759500652808050252
-0.23228710889816279,0.37430429458618159,-1.9211292534844382,1759500652838068230
0.61055976152420044,0.14391553401947019,0.11855451112612195,1759500652868099290
-0.19592469930648801,0.69049668312072754,-6.0105399441607998,1759500652890255222
0.1422087550163269,0.29492366313934321,4.799201145888496,1759500652928215490
0.18409228324890131,0.51232290267944336,-1.8602633296998876,1759500652958558765
-0.41367858648300171,0.22525167465209961,0.24377880958167475,1759500652988389809
0.30497550964355469,0.38242876529693598,-1.7919796537491748,1759500653020217003
-0.45588690042495728,0.1667686700820922,0.92538647299394861,1759500653050968621
0.0100489854812622,0.42300897836685181,5.7615408239568264,1759500653077475846
0.1738889217376709,0.40717059373855591,-4.407488713591567,1759500653107506304
0.067327857017517007,0.26548248529434199,-1.5135229450754255,1759500653138562653
-0.13856279850006101,0.56259393692016602,1.3759537639964141,1759500653168651160
0.41367912292480469,0.33672249317169189,2.8990237962564329,1759500653197710445
-0.15256363153457639,0.31769847869873041,-2.8945428670020235,1759500653228764920
0.10219317674636839,-0.094755411148071206,-1.7664525505887601,1759500653260658131
-0.1090424656867981,0.89489555358886719,0.51240174239544645,1759500653292205078
-0.38358134031295771,0.089414060115814195,3.6611314495654232,1759500653329001387
0.2352043390274047,0.19783782958984369,-3.5965298776701107,1759500653359200768
-0.51106351613998413,0.28167414665222168,0.41399030236170931,1759500653389097732
0.15880495309829709,0.17042273283004761,-1.0496418551439639,1759500653420215190
-0.55657237768173218,0.49909317493438721,-0.91921330434169157,1759500653452428462
0.54343748092651367,0.14302021265029899,7.620853967966438,1759500653479246357
-0.30721724033355707,0.3664364218711853,-5.2027531506358002,1759500653509219680
0.069392800331115695,0.15986138582229609,0.44078696595075278,1759500653539257281
-0.28370368480682367,0.63330972194671631,-0.63157757655169255,1759500653569371851
0.23525255918502799,0.048182010650634703,0.48217997544156627,1759500653599365449
-0.3528302907943725,0.6233208179473877,-0.94192399891371703,1759500653629420585
-0.1771289706230163,-0.100823163986206,-1.6121510742517209,1759500653660475120
-0.43625116348266602,0.49327319860458368,0.25138841934661582,1759500653692257102
0.28377419710159302,0.2010500431060791,6.7127291377686964,1759500653719644292
-0.1295623779296875,0.25646650791168207,-3.8516692707514864,1759500653749660617
-0.41453123092651362,0.22521382570266721,1.0852673518592484,1759500653778703620
0.2803497314453125,0.44508486986160278,-2.426128892159312,1759500653809804840
0.0566304922103881,0.1457067728042602,1.3616471417851328,1759500653839778702
-0.17520439624786369,0.48639118671417231,-0.86788616254190576,1759500653869976469
0.0323306918144226,0.25450736284255981,-1.7317772112067205,1759500653901019888
-0.36142116785049438,0.36587822437286371,0.033799789379692399,1759500653932457355
-0.15657627582550049,0.29057210683822632,6.1399723379173601,1759500653960037973
0.223625898361206,0.34849673509597778,-3.3811790263466883,1759500653990046840
-0.36235642433166498,0.2139283418655395,-0.43202872704847123,1759500654020090515
0.2107325196266174,0.34775042533874512,0.65768529012537247,1759500654050147392
0.043414711952209403,0.17213940620422361,-0.22661071653054934,1759500654080195331
-0.48283958435058588,0.37816870212554932,-1.1787574216817802,1759500654110244744
0.10429412126541129,0.51183748245239258,0.0020319229609080352,1759500654140315075
-0.3375099897384643,0.1161806583404541,-1.6706375936346407,1759500654172557015
-0.18376040458679199,0.33891886472702021,6.5942683487385674,1759500654199816354
0.19496387243270871,0.0081496238708496007,-5.0014030238859242,1759500654230604853
-0.299660325050354,0.26427817344665527,0.90608548805091538,1759500654260478032
-0.30242472887039179,0.1001646518707275,-4.6121805667166482,1759500654282595274
0.51632779836654663,0.50476264953613281,8.5118107348015588,1759500654309799868
-0.73711341619491577,0.24267745018005371,-5.2983740313658272,1759500654340613794
-0.1918904185295105,0.21506386995315549,1.0188041548541031,1759500654370806478
0.3364335298538208,0.23109060525894159,0.68979517902490006,1759500654400799156
0.0216238498687744,0.32941043376922607,-0.79038617217819507,1759500654430882399
-0.060360372066497803,0.33611589670181269,-0.57493894358938402,1759500654460951569
-0.43212592601776117,0.1205386519432067,-0.43082473645728853,1759500654492442069
-0.010002911090850801,0.44094669818878168,1.1278315873660962,1759500654522703048
0.38177335262298578,0.26653695106506348,2.0565641075466226,1759500654551049060
-0.35259068012237549,0.18073850870132441,-2.6070176711024802,1759500654581128874
0.34710586071014399,0.64178413152694702,1.2019827288229348,1759500654611144541
-0.2341168522834777,-0.14682942628860471,0.18156135988627808,1759500654641212785
0.40157830715179438,0.69668948650360107,-0.52984489466108065,1759500654671251367
0.24161005020141599,-0.041886448860168402,-0.89498964507690715,1759500654701263201
-0.1696824431419372,0.68478149175643921,-1.4354167926250194,1759500654732725381
-0.3142433762550354,0.076516509056091295,-0.78963824768946311,1759500654764547042
0.3367274403572082,0.17878961563110349,6.8396308611956771,1759500654791428880
-0.77210956811904907,0.34042137861251831,-4.1059369697675727,1759500654821440185
0.3777846097946167,0.43620467185974121,-0.37936243208947085,1759500654851576848
-0.58728259801864624,0.38807868957519531,0.19009432951747279,1759500654881820130
0.13379168510437009,-0.039576351642608601,0.26256570263714629,1759500654911777633
0.0099766850471495992,0.40755444765090942,-0.51621563150137806,1759500654941671358
-0.20227348804473869,0.057782888412475503,-0.22229783096157674,1759500654972340425
0.26190066337585449,0.44085854291915888,-1.2262477618494525,1759500655004543411
-0.039042532444000203,0.37020879983901978,4.9446249996428948,1759500655031989101
-0.36780542135238647,0.36147993803024292,-2.7826134327196783,1759500655061902147
0.040976285934448201,0.25757908821105951,0.15683060310019389,1759500655091933121
-0.34102040529251099,0.56684601306915283,-0.046707800687547867,1759500655121992425
0.15785950422286979,0.1511394381523132,0.48034100343560232,1759500655152061020
0.070274353027343694,0.31282955408096308,-0.34129277828736693,1759500655182106996
-0.13439947366714469,0.0122316479682922,-0.4775495380022583,1759500655212324034
0.15016025304794309,0.48323243856430048,-2.9530512197224872,1759500655245472245
0.081019461154937703,0.33751988410949701,7.9641108304554669,1759500655272304635
-0.4259353876113891,-0.0199310183525085,-4.2528443045025401,1759500655302269859
0.014370322227478,0.31944090127944941,-0.0659824374939567,1759500655332486904
-0.096580266952514607,0.26457089185714722,0.67848318960235421,1759500655362403703
-0.21460485458374021,0.2822927832603454,-0.76483192670235534,1759500655392455992
0.32531839609146118,0.42731994390487671,-0.068909794426850676,1759500655422486187
-0.57022190093994141,0.074205160140991197,-0.33863691310561317,1759500655452585307
0.6704980731010437,0.29662364721298218,-1.0252307954271302,1759500655484508196
-0.18677449226379389,0.24749761819839469,1.4249508888616982,1759500655515253538
0.047787785530090297,0.4968923926353454,2.4895720945006121,1759500655542761127
-0.077471315860748194,0.1886284351348877,-3.5112621672696278,1759500655572800271
0.078292787075042697,0.38432657718658447,0.84474014682751752,1759500655602790111
0.083181440830230699,0.4990350604057312,0.040230469453771622,1759500655632909725
-0.17452192306518549,0.14459866285324091,0.5570207765360502,1759500655662887210
0.0074646472930908004,0.87238013744354248,-0.31765358248614478,1759500655693202628
0.28616917133331299,-0.3231925368309021,-0.4930820786291254,1759500655724484086
-0.11577600240707391,0.53777015209197998,-0.41237631374018341,1759500655756374463
0.1573606729507446,0.11426115036010739,5.3026367118332542,1759500655783122230
-0.052557587623596101,0.54096198081970215,-4.3856771139023225,1759500655813173656
-0.1995508074760437,0.0528511404991149,0.424223399082583,1759500655843207955
0.14791238307952881,0.65391361713409424,-0.41653043632632136,1759500655873299319
-0.20442837476730341,0.16428250074386591,0.0520207395312203,1759500655903324905
0.029639661312103199,0.33949244022369379,0.1048431000288928,1759500655933473188
0.52713775634765625,0.38152700662612909,-1.1538003673514414,1759500655964437366
-0.1847690939903259,0.090113580226898193,-1.102853178053665,1759500655996409431
-0.2170606255531311,0.15509259700775141,4.3734361383992546,1759500656033572367
0.10457932949066159,0.45990979671478271,-2.8210067226840816,1759500656063559639
-0.6818128228187561,-0.1094845533370971,-0.7236342832517082,1759500656093661343
0.27115881443023682,0.1998406648635864,-0.6693238517088157,1759500656124507937
-0.74961215257644653,0.48715603351593018,-1.2381623053723181,1759500656156451347
-0.070703089237213093,0.0969132781028747,6.10881182474452,1759500656183847421
0.39258325099945068,0.37935823202133179,-2.8354368725504924,1759500656213878732
-0.5559881329536438,-0.15374606847763059,-1.2908638397578791,1759500656243958015
0.2475332021713256,0.38605743646621699,0.86588494607695954,1759500656273948869
-0.39002490043640131,0.1894394159317016,-0.3560898608628858,1759500656304032138
-0.052476167678833001,0.26520258188247681,-0.19400064234824968,1759500656334101407
-0.14182573556900019,0.1217643022537231,0.16086157256973815,1759500656364753279
-0.0627026557922363,0.28530669212341309,-1.6432653021826953,1759500656397089197
0.080354332923889105,0.60563355684280396,4.768349708314827,1759500656424456398
-0.2492191791534423,0.21909713745117179,-3.083752318689263,1759500656454313964
-0.1092195510864257,0.21932822465896601,0.11664303904002167,1759500656484284304
0.34500306844711298,0.34823238849639893,0.060123939657507931,1759500656514299123
0.027763545513153,0.1478115916252136,0.47815029401246972,1759500656544411454
0.18209725618362421,0.60037493705749512,-0.41494366109822978,1759500656574435334
-0.27698403596878052,-0.050993323326110798,-0.21438626990814669,1759500656604489052
-0.097270846366882296,0.43013691902160639,-1.4276471454407313,1759500656636572780
0.24266272783279419,0.47301745414733881,1.1178771101061482,1759500656667176102
-0.70179092884063721,-0.1353573203086853,2.6138769138143432,1759500656694779587
0.31488269567489618,0.49639713764190668,-0.91811774256169387,1759500656723710065
-0.13996511697769159,-0.34475374221801758,-2.1522641290444358,1759500656754769156
-0.3567359447479248,0.52861201763153076,1.4219167121634497,1759500656784855142
0.67327237129211426,0.11543262004852289,0.054657529641765103,1759500656814890101
-0.57950061559677124,0.13873177766799921,-0.68062472127666807,1759500656844968278
0.074107706546783406,0.18127733469009399,-1.230256212325826,1759500656876875166
